Time Pitch Intensity
0.01 --undefined-- --undefined--
0.02 --undefined-- --undefined--
0.03 --undefined-- --undefined--
0.04 --undefined-- --undefined--
0.05 --undefined-- 35.014
0.06 --undefined-- 35.283
0.07 --undefined-- 35.895
0.08 --undefined-- 36.192
0.09 --undefined-- 43.622
0.10 --undefined-- 53.090
0.11 --undefined-- 57.969
0.12 --undefined-- 59.846
0.13 --undefined-- 61.349
0.14 80.952 62.719
0.15 79.166 63.792
0.16 77.313 64.938
0.17 77.572 65.573
0.18 76.056 65.221
0.19 78.525 63.503
0.20 78.028 60.029
0.21 82.780 55.497
0.22 86.216 52.386
0.23 86.844 52.087
0.24 87.273 52.899
0.25 87.417 53.465
0.26 90.078 54.112
0.27 91.758 54.775
0.28 90.914 55.563
0.29 91.259 56.986
0.30 89.792 58.591
0.31 86.775 59.796
0.32 85.060 60.916
0.33 84.533 62.779
0.34 83.870 64.896
0.35 81.954 66.865
0.36 78.820 68.292
0.37 76.749 68.695
0.38 76.623 68.092
0.39 75.676 67.041
0.40 74.801 66.338
0.41 75.200 66.531
0.42 75.307 66.826
0.43 75.089 65.965
0.44 75.918 64.432
0.45 75.343 63.209
0.46 75.249 62.497
0.47 --undefined-- 63.556
0.48 --undefined-- 64.326
0.49 --undefined-- 63.752
0.50 --undefined-- 63.549
0.51 --undefined-- 62.788
0.52 --undefined-- 60.827
0.53 --undefined-- 59.750
0.54 --undefined-- 58.115
0.55 --undefined-- 54.102
0.56 --undefined-- 48.511
0.57 --undefined-- 44.697
0.58 --undefined-- 41.432
0.59 --undefined-- 38.064
0.60 --undefined-- 38.176
0.61 --undefined-- 38.301
0.62 --undefined-- 36.320
0.63 --undefined-- 34.109
0.64 --undefined-- 34.262
0.65 --undefined-- 35.399
0.66 --undefined-- 35.898
0.67 --undefined-- 35.290
0.68 --undefined-- 34.427
0.69 --undefined-- 34.047
0.70 --undefined-- 34.011
0.71 --undefined-- 34.863
0.72 --undefined-- 36.420
0.73 --undefined-- 38.257
0.74 --undefined-- 44.513
0.75 --undefined-- 50.102
0.76 --undefined-- 51.783
0.77 --undefined-- 51.170
0.78 --undefined-- 52.548
0.79 --undefined-- 54.852
0.80 --undefined-- 56.232
0.81 --undefined-- 56.948
0.82 --undefined-- 57.308
0.83 --undefined-- 57.823
0.84 --undefined-- 58.123
0.85 --undefined-- 61.245
0.86 --undefined-- 68.463
0.87 --undefined-- 73.713
0.88 109.253 76.616
0.89 106.984 78.114
0.90 104.237 78.832
0.91 102.037 78.679
0.92 100.250 77.448
0.93 97.624 75.241
0.94 96.242 72.256
0.95 95.317 68.963
0.96 96.088 65.937
0.97 96.759 63.434
0.98 97.550 60.831
0.99 99.275 58.529
1.00 101.434 57.677
1.01 101.340 57.391
1.02 101.950 57.306
1.03 101.159 57.138
1.04 100.633 56.494
1.05 --undefined-- 55.165
1.06 --undefined-- 53.470
1.07 --undefined-- 53.072
1.08 --undefined-- 53.607
1.09 --undefined-- 53.571
1.10 --undefined-- 53.405
1.11 --undefined-- 54.338
1.12 --undefined-- 55.903
1.13 --undefined-- 60.955
1.14 --undefined-- 66.754
1.15 --undefined-- 70.119
1.16 --undefined-- 71.627
1.17 --undefined-- 71.990
1.18 --undefined-- 71.948
1.19 --undefined-- 72.248
1.20 --undefined-- 71.793
1.21 --undefined-- 70.109
1.22 --undefined-- 67.524
1.23 --undefined-- 64.906
1.24 --undefined-- 62.697
1.25 --undefined-- 58.565
1.26 --undefined-- 51.966
1.27 --undefined-- 44.121
1.28 --undefined-- 41.088
1.29 --undefined-- 41.755
1.30 --undefined-- 40.507
1.31 --undefined-- 37.871
1.32 --undefined-- 35.783
1.33 --undefined-- 34.979
1.34 --undefined-- 34.909
1.35 --undefined-- 35.014
1.36 --undefined-- 34.849
1.37 --undefined-- 34.873
1.38 --undefined-- 35.360
1.39 --undefined-- 36.398
1.40 --undefined-- 37.115
1.41 --undefined-- 37.128
1.42 --undefined-- 37.790
1.43 --undefined-- 39.204
1.44 --undefined-- 40.002
1.45 --undefined-- 43.145
1.46 --undefined-- 50.495
1.47 --undefined-- 55.481
1.48 --undefined-- 57.343
1.49 --undefined-- 56.342
1.50 --undefined-- 52.951
1.51 --undefined-- 49.060
1.52 --undefined-- 46.515
1.53 --undefined-- 46.205
1.54 --undefined-- 46.507
1.55 --undefined-- 46.621
1.56 --undefined-- 46.037
1.57 --undefined-- 44.637
1.58 --undefined-- 42.515
1.59 --undefined-- 39.539
1.60 --undefined-- 37.438
1.61 --undefined-- 35.840
1.62 --undefined-- 33.834
1.63 --undefined-- 38.997
1.64 --undefined-- 50.889
1.65 --undefined-- 57.531
1.66 --undefined-- 59.302
1.67 --undefined-- 58.312
1.68 --undefined-- 61.091
1.69 --undefined-- 63.041
1.70 --undefined-- 61.767
1.71 114.184 60.362
1.72 114.169 60.762
1.73 115.022 60.857
1.74 117.551 60.539
1.75 119.319 60.298
1.76 120.020 60.299
1.77 119.829 60.468
1.78 119.747 60.531
1.79 118.954 60.092
1.80 115.533 59.009
1.81 108.624 58.788
1.82 105.935 62.473
1.83 105.400 67.786
1.84 105.001 71.824
1.85 101.973 73.949
1.86 99.611 74.476
1.87 97.164 74.113
1.88 97.255 73.512
1.89 96.979 72.760
1.90 96.273 71.694
1.91 93.854 70.348
1.92 92.270 68.181
1.93 91.388 64.639
1.94 91.914 59.860
1.95 92.304 55.972
1.96 92.200 55.323
1.97 91.966 55.649
1.98 90.524 55.340
1.99 89.529 54.383
2.00 --undefined-- 55.873
2.01 --undefined-- 61.145
2.02 94.034 65.691
2.03 91.632 68.610
2.04 90.432 69.954
2.05 89.401 70.051
2.06 88.082 69.467
2.07 87.240 68.773
2.08 86.921 67.907
2.09 86.747 66.636
2.10 88.171 65.218
2.11 89.891 64.288
2.12 90.019 63.926
2.13 89.827 63.725
2.14 91.960 62.859
2.15 --undefined-- 59.864
2.16 --undefined-- 53.965
2.17 --undefined-- 55.251
2.18 --undefined-- 59.929
2.19 --undefined-- 61.156
2.20 --undefined-- 62.729
2.21 --undefined-- 67.200
2.22 110.351 70.115
2.23 106.779 71.033
2.24 106.777 71.018
2.25 103.798 70.926
2.26 103.874 70.860
2.27 101.351 70.194
2.28 105.342 68.316
2.29 --undefined-- 64.540
2.30 --undefined-- 58.669
2.31 --undefined-- 53.982
2.32 --undefined-- 54.313
2.33 --undefined-- 55.917
2.34 --undefined-- 57.255
2.35 --undefined-- 58.628
2.36 --undefined-- 59.136
2.37 --undefined-- 58.583
2.38 --undefined-- 58.943
2.39 --undefined-- 60.496
2.40 81.634 62.292
2.41 82.779 63.831
2.42 80.590 64.899
2.43 80.986 65.593
2.44 81.026 65.810
2.45 80.719 65.744
2.46 81.871 65.666
2.47 83.263 65.243
2.48 84.229 64.104
2.49 86.439 62.452
2.50 90.058 61.408
2.51 93.039 61.346
2.52 96.076 61.268
2.53 98.288 60.833
2.54 101.072 60.354
2.55 102.849 59.778
2.56 100.860 59.362
2.57 99.797 60.713
2.58 100.893 63.558
2.59 --undefined-- 66.445
2.60 --undefined-- 68.622
2.61 --undefined-- 69.267
2.62 --undefined-- 68.820
2.63 --undefined-- 68.116
2.64 --undefined-- 66.323
2.65 --undefined-- 62.466
2.66 --undefined-- 57.821
2.67 --undefined-- 58.641
2.68 --undefined-- 60.518
2.69 --undefined-- 61.487
2.70 --undefined-- 62.305
2.71 --undefined-- 62.739
2.72 --undefined-- 62.064
2.73 --undefined-- 60.439
2.74 --undefined-- 58.234
2.75 --undefined-- 61.377
2.76 --undefined-- 68.215
2.77 --undefined-- 72.322
2.78 102.294 73.944
2.79 101.166 73.659
2.80 98.611 71.914
2.81 96.769 69.030
2.82 95.297 65.314
2.83 94.647 61.600
2.84 93.954 58.375
2.85 93.699 56.064
2.86 93.368 55.823
2.87 93.578 56.131
2.88 93.852 55.935
2.89 93.996 54.836
2.90 91.250 52.689
2.91 --undefined-- 49.842
2.92 --undefined-- 47.250
2.93 --undefined-- 47.305
2.94 --undefined-- 49.290
2.95 --undefined-- 52.618
2.96 --undefined-- 56.413
2.97 --undefined-- 59.072
2.98 --undefined-- 59.821
2.99 --undefined-- 60.142
3.00 --undefined-- 64.796
3.01 --undefined-- 68.649
3.02 --undefined-- 69.808
3.03 --undefined-- 68.991
3.04 --undefined-- 66.897
3.05 --undefined-- 64.344
3.06 --undefined-- 61.534
3.07 --undefined-- 57.753
3.08 --undefined-- 53.950
3.09 --undefined-- 51.450
3.10 --undefined-- 49.667
3.11 --undefined-- 46.584
3.12 --undefined-- 41.646
3.13 --undefined-- 36.411
3.14 --undefined-- 35.170
3.15 --undefined-- 48.256
3.16 --undefined-- 58.550
3.17 --undefined-- 63.369
3.18 --undefined-- 63.619
3.19 --undefined-- 60.987
3.20 --undefined-- 62.054
3.21 --undefined-- 63.757
3.22 86.303 62.742
3.23 83.811 59.592
3.24 84.124 56.258
3.25 80.695 54.288
3.26 78.868 52.741
3.27 79.138 51.388
3.28 --undefined-- 50.009
3.29 --undefined-- 49.215
3.30 --undefined-- 48.482
3.31 --undefined-- 48.225
3.32 --undefined-- 56.421
3.33 --undefined-- 63.149
3.34 --undefined-- 65.330
3.35 --undefined-- 64.626
3.36 --undefined-- 67.096
3.37 96.125 70.817
3.38 96.050 72.803
3.39 95.741 73.210
3.40 93.316 72.314
3.41 92.270 70.587
3.42 93.453 68.639
3.43 --undefined-- 66.427
3.44 --undefined-- 63.809
3.45 --undefined-- 62.764
3.46 --undefined-- 63.132
3.47 --undefined-- 62.574
3.48 --undefined-- 61.258
3.49 --undefined-- 60.099
3.50 --undefined-- 58.732
3.51 --undefined-- 57.685
3.52 --undefined-- 59.482
3.53 --undefined-- 61.863
3.54 86.105 63.357
3.55 85.366 64.195
3.56 84.325 64.542
3.57 83.898 64.416
3.58 83.830 63.889
3.59 84.396 63.038
3.60 86.574 61.775
3.61 86.647 60.129
3.62 85.840 58.773
3.63 86.443 59.240
3.64 87.360 61.181
3.65 86.617 62.846
3.66 85.188 63.876
3.67 84.871 64.217
3.68 83.548 63.585
3.69 82.785 62.237
3.70 82.040 60.575
3.71 --undefined-- 57.433
3.72 --undefined-- 52.828
3.73 --undefined-- 50.337
3.74 --undefined-- 49.939
3.75 --undefined-- 51.934
3.76 --undefined-- 55.587
3.77 --undefined-- 57.660
3.78 --undefined-- 56.903
3.79 --undefined-- 55.622
3.80 --undefined-- 59.576
3.81 --undefined-- 64.202
3.82 --undefined-- 66.254
3.83 --undefined-- 65.643
3.84 --undefined-- 63.324
3.85 90.932 60.458
3.86 90.863 57.112
3.87 89.411 53.553
3.88 --undefined-- 50.529
3.89 --undefined-- 47.661
3.90 --undefined-- 44.698
3.91 --undefined-- 42.436
3.92 --undefined-- 40.582
3.93 --undefined-- 40.686
3.94 --undefined-- 43.754
3.95 --undefined-- 46.553
3.96 --undefined-- 50.055
3.97 --undefined-- 53.172
3.98 --undefined-- 56.264
3.99 --undefined-- 59.092
4.00 --undefined-- 62.652
4.01 --undefined-- 65.255
4.02 77.658 65.704
4.03 80.379 64.394
4.04 79.105 62.239
4.05 78.382 61.270
4.06 78.310 61.677
4.07 78.512 61.153
4.08 --undefined-- 59.332
4.09 --undefined-- 56.260
4.10 --undefined-- 52.629
4.11 --undefined-- 50.589
4.12 --undefined-- 49.901
4.13 --undefined-- 48.292
4.14 --undefined-- 46.952
4.15 --undefined-- 47.202
4.16 --undefined-- 47.848
4.17 --undefined-- 47.978
4.18 --undefined-- 46.820
4.19 --undefined-- 47.421
4.20 --undefined-- 53.695
4.21 --undefined-- 57.766
4.22 --undefined-- 59.016
4.23 --undefined-- 59.437
4.24 --undefined-- 59.801
4.25 --undefined-- 60.039
4.26 --undefined-- 60.352
4.27 --undefined-- 60.569
4.28 --undefined-- 60.746
4.29 --undefined-- 60.586
4.30 --undefined-- 59.790
4.31 --undefined-- 57.177
4.32 --undefined-- 51.582
4.33 --undefined-- 42.911
4.34 --undefined-- 35.784
4.35 --undefined-- 34.283
4.36 --undefined-- 33.794
4.37 --undefined-- 33.823
4.38 --undefined-- 34.522
4.39 --undefined-- 34.850
4.40 --undefined-- 36.309
4.41 --undefined-- 46.232
4.42 --undefined-- 54.033
4.43 --undefined-- 60.383
4.44 --undefined-- 66.694
4.45 --undefined-- 70.407
4.46 99.184 71.263
4.47 99.970 70.743
4.48 98.276 70.399
4.49 98.606 70.425
4.50 97.396 70.216
4.51 96.600 69.619
4.52 95.450 68.777
4.53 95.088 67.610
4.54 95.668 66.265
4.55 97.393 65.024
4.56 97.467 63.961
4.57 97.694 63.129
4.58 97.933 62.514
4.59 96.991 61.886
4.60 95.397 60.465
4.61 95.562 57.849
4.62 95.707 54.828
4.63 95.071 52.655
4.64 94.886 51.514
4.65 95.087 51.074
4.66 95.880 50.350
4.67 --undefined-- 49.100
4.68 --undefined-- 48.050
4.69 --undefined-- 48.055
4.70 --undefined-- 48.352
4.71 --undefined-- 48.366
4.72 --undefined-- 48.442
4.73 --undefined-- 48.754
4.74 --undefined-- 48.844
4.75 --undefined-- 48.269
4.76 --undefined-- 46.981
4.77 --undefined-- 45.818
4.78 --undefined-- 45.014
4.79 --undefined-- 44.020
4.80 --undefined-- 43.324
4.81 --undefined-- 42.035
4.82 --undefined-- 38.520
4.83 --undefined-- 35.330
4.84 --undefined-- 36.919
4.85 --undefined-- 38.826
4.86 --undefined-- 38.503
4.87 --undefined-- 37.277
4.88 --undefined-- 37.980
4.89 --undefined-- 39.361
4.90 --undefined-- 40.754
4.91 --undefined-- 42.199
4.92 --undefined-- 43.264
4.93 --undefined-- 44.035
4.94 --undefined-- 44.408
4.95 --undefined-- 44.299
4.96 --undefined-- 44.150
4.97 --undefined-- 43.825
4.98 --undefined-- 43.207
4.99 --undefined-- 42.716
5.00 --undefined-- 42.820
5.01 --undefined-- 43.198
5.02 --undefined-- 43.106
5.03 --undefined-- 41.814
5.04 --undefined-- 39.925
5.05 --undefined-- 38.721
5.06 --undefined-- 38.111
5.07 --undefined-- 37.157
5.08 --undefined-- 35.366
5.09 --undefined-- 35.148
5.10 --undefined-- 35.905
5.11 --undefined-- 34.610
5.12 --undefined-- 32.920
5.13 --undefined-- 33.511
5.14 --undefined-- 33.613
5.15 --undefined-- 33.165
5.16 --undefined-- 38.022
5.17 --undefined-- 50.088
5.18 --undefined-- 59.180
5.19 --undefined-- 64.736
5.20 --undefined-- 67.700
5.21 91.461 68.543
5.22 91.137 67.729
5.23 86.569 65.849
5.24 --undefined-- 62.827
5.25 --undefined-- 58.178
5.26 --undefined-- 57.249
5.27 --undefined-- 62.459
5.28 --undefined-- 65.247
5.29 --undefined-- 64.090
5.30 --undefined-- 58.580
5.31 --undefined-- 47.722
5.32 --undefined-- 41.619
5.33 --undefined-- 54.425
5.34 --undefined-- 62.403
5.35 --undefined-- 66.222
5.36 --undefined-- 67.431
5.37 --undefined-- 67.709
5.38 --undefined-- 67.315
5.39 --undefined-- 66.304
5.40 --undefined-- 64.852
5.41 --undefined-- 62.334
5.42 --undefined-- 58.135
5.43 --undefined-- 53.349
5.44 --undefined-- 51.002
5.45 --undefined-- 50.141
5.46 --undefined-- 49.547
5.47 --undefined-- 50.545
5.48 --undefined-- 51.663
5.49 --undefined-- 52.280
5.50 --undefined-- 55.151
5.51 --undefined-- 58.943
5.52 --undefined-- 62.500
5.53 --undefined-- 65.478
5.54 74.460 67.350
5.55 74.651 67.911
5.56 74.922 67.591
5.57 74.924 66.983
5.58 75.965 66.383
5.59 76.288 65.922
5.60 77.166 66.023
5.61 82.416 66.632
5.62 82.497 66.065
5.63 84.221 64.047
5.64 84.724 62.006
5.65 --undefined-- 59.601
5.66 --undefined-- 56.285
5.67 --undefined-- 52.189
5.68 --undefined-- 47.069
5.69 --undefined-- 43.684
5.70 --undefined-- 46.046
5.71 --undefined-- 55.336
5.72 --undefined-- 60.684
5.73 --undefined-- 61.906
5.74 --undefined-- 62.018
5.75 --undefined-- 66.122
5.76 --undefined-- 68.697
5.77 77.290 68.762
5.78 80.216 68.376
5.79 78.951 68.058
5.80 79.709 --undefined--
5.81 80.039 --undefined--
5.82 --undefined-- --undefined--
5.83 --undefined-- --undefined--
