Time Pitch Intensity
0.01 --undefined-- --undefined--
0.02 --undefined-- --undefined--
0.03 --undefined-- --undefined--
0.04 --undefined-- --undefined--
0.05 127.468 63.877
0.06 127.323 67.818
0.07 130.246 70.652
0.08 132.848 72.595
0.09 135.330 73.797
0.10 139.911 74.528
0.11 144.931 74.854
0.12 153.834 75.022
0.13 161.753 75.911
0.14 172.001 77.759
0.15 179.662 78.930
0.16 177.839 78.815
0.17 173.149 78.897
0.18 165.708 79.721
0.19 160.879 80.051
0.20 151.687 79.463
0.21 145.693 78.830
0.22 142.584 78.583
0.23 140.366 78.422
0.24 138.512 77.912
0.25 135.365 76.045
0.26 129.254 71.858
0.27 118.301 65.201
0.28 129.898 58.528
0.29 --undefined-- 53.566
0.30 --undefined-- 48.108
0.31 --undefined-- 43.915
0.32 --undefined-- 51.433
0.33 --undefined-- 62.737
0.34 --undefined-- 70.331
0.35 --undefined-- 74.710
0.36 --undefined-- 76.600
0.37 131.628 77.030
0.38 126.116 76.867
0.39 123.401 76.438
0.40 122.027 75.637
0.41 120.128 73.776
0.42 118.263 69.937
0.43 --undefined-- 63.612
0.44 --undefined-- 55.215
0.45 --undefined-- 49.376
0.46 --undefined-- 48.903
0.47 --undefined-- 57.138
0.48 --undefined-- 65.898
0.49 --undefined-- 70.997
0.50 132.749 73.218
0.51 130.753 73.724
0.52 126.396 73.564
0.53 122.786 73.063
0.54 119.414 72.099
0.55 116.408 70.966
0.56 116.523 70.025
0.57 114.544 68.996
0.58 113.077 67.484
0.59 111.078 65.035
0.60 105.429 61.377
0.61 102.956 57.566
0.62 138.025 58.234
0.63 143.434 63.624
0.64 148.545 68.582
0.65 150.402 72.187
0.66 151.867 74.628
0.67 152.546 76.218
0.68 153.272 77.147
0.69 153.521 77.634
0.70 153.417 77.826
0.71 153.989 77.750
0.72 156.187 77.449
0.73 158.565 77.030
0.74 159.675 76.437
0.75 159.488 75.345
0.76 157.884 73.378
0.77 150.693 70.652
0.78 149.568 68.194
0.79 153.783 66.172
0.80 162.794 63.719
0.81 160.266 60.604
0.82 --undefined-- 56.569
0.83 --undefined-- 52.556
0.84 --undefined-- 48.263
0.85 --undefined-- 41.550
0.86 --undefined-- 36.698
0.87 --undefined-- 35.056
0.88 --undefined-- 42.809
0.89 --undefined-- 53.521
0.90 116.420 60.257
0.91 112.535 64.176
0.92 107.895 66.407
0.93 110.111 67.617
0.94 108.538 68.212
0.95 107.917 68.580
0.96 108.399 68.839
0.97 109.208 68.975
0.98 110.661 69.184
0.99 112.233 69.512
1.00 113.700 69.838
1.01 115.978 70.223
1.02 118.675 70.746
1.03 122.268 71.326
1.04 125.572 71.715
1.05 127.798 71.796
1.06 129.121 71.585
1.07 129.110 70.938
1.08 126.821 69.431
1.09 122.159 66.756
1.10 114.446 63.166
1.11 110.605 60.369
1.12 --undefined-- 64.107
1.13 --undefined-- 69.723
1.14 139.405 73.776
1.15 139.420 76.039
1.16 132.927 77.063
1.17 130.024 77.747
1.18 130.252 77.806
1.19 129.901 77.043
1.20 129.839 76.315
1.21 131.189 76.227
1.22 130.498 75.907
1.23 --undefined-- 74.111
1.24 --undefined-- 70.572
1.25 --undefined-- 66.533
1.26 --undefined-- 61.271
1.27 --undefined-- 53.035
1.28 --undefined-- 45.293
1.29 --undefined-- 44.736
1.30 --undefined-- 54.497
1.31 --undefined-- 63.330
1.32 --undefined-- 68.538
1.33 123.857 70.909
1.34 122.229 71.709
1.35 119.505 72.097
1.36 118.820 72.414
1.37 118.833 72.468
1.38 118.327 72.217
1.39 117.735 71.854
1.40 118.898 71.640
1.41 120.556 71.468
1.42 121.100 70.493
1.43 117.111 67.476
1.44 114.633 61.461
1.45 --undefined-- 52.698
1.46 --undefined-- 46.015
1.47 --undefined-- 48.049
1.48 --undefined-- 57.310
1.49 177.184 65.980
1.50 170.002 71.302
1.51 160.406 73.848
1.52 151.445 75.036
1.53 148.665 75.924
1.54 146.181 76.429
1.55 145.351 76.329
1.56 145.313 76.181
1.57 146.717 76.198
1.58 146.708 75.730
1.59 143.880 74.114
1.60 138.769 70.603
1.61 130.000 64.610
1.62 137.462 57.242
1.63 --undefined-- 51.580
1.64 --undefined-- 47.754
1.65 --undefined-- 53.782
1.66 --undefined-- 61.540
1.67 --undefined-- 66.833
1.68 164.805 70.475
1.69 155.853 72.574
1.70 152.271 73.272
1.71 149.597 73.098
1.72 147.878 72.856
1.73 148.267 73.015
1.74 148.724 73.292
1.75 149.014 73.450
1.76 148.494 73.455
1.77 148.245 73.364
1.78 148.557 73.180
1.79 146.783 72.480
1.80 143.142 70.657
1.81 138.924 67.267
1.82 135.693 61.881
1.83 --undefined-- 54.307
1.84 --undefined-- 47.169
1.85 --undefined-- 45.398
1.86 --undefined-- 47.290
1.87 --undefined-- 49.976
1.88 --undefined-- 53.004
1.89 --undefined-- 62.406
1.90 196.120 69.952
1.91 175.238 74.350
1.92 165.700 76.300
1.93 159.236 76.634
1.94 157.693 76.496
1.95 157.572 76.561
1.96 158.637 76.707
1.97 160.665 76.899
1.98 162.564 77.096
1.99 163.871 77.175
2.00 164.937 77.106
2.01 165.517 76.880
2.02 165.982 76.525
2.03 165.631 75.959
2.04 164.477 74.955
2.05 162.684 73.231
2.06 155.579 70.550
2.07 156.075 67.603
2.08 173.483 65.355
2.09 173.738 62.265
2.10 --undefined-- 58.881
2.11 --undefined-- 56.596
2.12 --undefined-- 53.483
2.13 --undefined-- 48.307
2.14 --undefined-- 41.357
2.15 --undefined-- 37.862
2.16 --undefined-- 38.078
2.17 --undefined-- 38.036
2.18 --undefined-- 36.961
2.19 --undefined-- 36.318
2.20 --undefined-- 37.853
2.21 --undefined-- 39.096
2.22 --undefined-- 38.688
2.23 --undefined-- 37.753
2.24 --undefined-- 38.071
2.25 --undefined-- 38.065
2.26 --undefined-- 38.190
2.27 --undefined-- 39.139
2.28 --undefined-- 40.148
2.29 --undefined-- 40.646
2.30 --undefined-- 40.542
2.31 --undefined-- 40.094
2.32 --undefined-- 39.802
2.33 --undefined-- 39.726
2.34 --undefined-- 39.824
2.35 --undefined-- 40.096
2.36 --undefined-- 40.295
2.37 --undefined-- 40.216
2.38 --undefined-- 40.017
2.39 --undefined-- 40.217
2.40 --undefined-- 40.037
2.41 --undefined-- 39.416
2.42 --undefined-- 39.600
2.43 --undefined-- 39.954
2.44 --undefined-- 40.080
2.45 --undefined-- 39.777
2.46 --undefined-- 38.906
2.47 --undefined-- 37.989
2.48 --undefined-- 37.915
2.49 --undefined-- 38.203
2.50 --undefined-- 39.015
2.51 --undefined-- 38.701
2.52 --undefined-- 38.379
2.53 --undefined-- 49.219
2.54 --undefined-- 58.434
2.55 --undefined-- 64.275
2.56 130.072 67.974
2.57 125.908 70.577
2.58 126.823 72.694
2.59 129.589 74.462
2.60 132.834 76.006
2.61 136.812 77.549
2.62 140.070 79.028
2.63 142.990 80.199
2.64 146.498 80.920
2.65 151.260 80.960
2.66 156.174 80.288
2.67 161.963 79.600
2.68 166.768 79.657
2.69 171.360 80.353
2.70 175.044 81.393
2.71 177.703 82.281
2.72 181.122 82.315
2.73 187.513 80.870
2.74 199.605 78.043
2.75 204.348 75.428
2.76 205.086 74.010
2.77 203.422 72.612
2.78 197.730 70.237
2.79 183.397 66.260
2.80 176.715 60.349
2.81 --undefined-- 53.119
2.82 --undefined-- 46.440
2.83 --undefined-- 42.780
2.84 --undefined-- 44.486
2.85 --undefined-- 47.181
2.86 --undefined-- 47.871
2.87 --undefined-- 48.059
2.88 --undefined-- 50.039
2.89 --undefined-- 55.946
2.90 --undefined-- 65.429
2.91 214.790 72.849
2.92 196.325 77.330
2.93 189.926 79.202
2.94 184.059 78.964
2.95 178.761 77.779
2.96 176.882 77.168
2.97 174.811 77.425
2.98 173.111 78.005
2.99 171.546 78.396
3.00 171.340 78.319
3.01 172.482 77.811
3.02 173.931 77.215
3.03 175.141 76.814
3.04 174.484 76.324
3.05 172.021 74.825
3.06 163.733 71.266
3.07 142.992 65.174
3.08 --undefined-- 57.721
3.09 --undefined-- 51.012
3.10 --undefined-- 47.319
3.11 --undefined-- 52.200
3.12 --undefined-- 56.275
3.13 --undefined-- 62.045
3.14 193.768 69.542
3.15 176.939 74.277
3.16 160.504 76.458
3.17 149.657 77.166
3.18 140.976 77.467
3.19 135.340 77.746
3.20 131.350 78.112
3.21 130.688 78.745
3.22 131.161 79.328
3.23 131.559 79.648
3.24 131.515 79.732
3.25 131.862 79.620
3.26 132.152 79.413
3.27 131.077 79.216
3.28 130.666 78.912
3.29 131.670 78.271
3.30 133.935 77.232
3.31 135.771 75.825
3.32 135.248 73.849
3.33 132.315 70.979
3.34 --undefined-- 66.955
3.35 --undefined-- 61.430
3.36 --undefined-- 54.132
3.37 --undefined-- 45.691
3.38 --undefined-- 40.409
3.39 --undefined-- 38.179
3.40 --undefined-- 36.944
3.41 --undefined-- 35.545
3.42 --undefined-- 34.194
3.43 --undefined-- 37.403
3.44 --undefined-- 49.214
3.45 --undefined-- 60.799
3.46 --undefined-- 68.802
3.47 --undefined-- 73.385
3.48 137.240 75.413
3.49 134.942 75.736
3.50 133.533 75.221
3.51 135.828 74.694
3.52 136.778 74.441
3.53 136.223 74.426
3.54 135.180 74.661
3.55 133.889 75.080
3.56 133.000 75.392
3.57 133.200 75.340
3.58 134.409 75.097
3.59 137.259 74.975
3.60 140.760 75.072
3.61 143.663 75.237
3.62 139.762 74.743
3.63 140.060 72.542
3.64 132.727 68.044
3.65 126.633 61.815
3.66 130.549 56.115
3.67 --undefined-- 51.086
3.68 --undefined-- 47.881
3.69 --undefined-- 49.381
3.70 --undefined-- 53.844
3.71 --undefined-- 58.027
3.72 --undefined-- 60.306
3.73 --undefined-- 60.997
3.74 --undefined-- 63.105
3.75 230.518 69.018
3.76 210.990 73.437
3.77 201.787 75.982
3.78 199.331 77.576
3.79 197.260 78.452
3.80 195.889 78.379
3.81 195.505 77.060
3.82 194.682 74.216
3.83 183.174 70.562
3.84 187.085 68.598
3.85 189.032 68.158
3.86 187.705 67.914
3.87 183.580 67.940
3.88 178.902 68.600
3.89 171.119 69.946
3.90 161.790 71.789
3.91 152.363 73.862
3.92 144.243 75.603
3.93 137.742 76.513
3.94 132.318 76.614
3.95 129.004 76.515
3.96 128.018 76.638
3.97 128.770 76.652
3.98 131.432 76.212
3.99 135.039 74.940
4.00 135.169 72.681
4.01 144.833 70.613
4.02 148.517 69.426
4.03 152.062 69.093
4.04 162.272 71.441
4.05 168.272 74.875
4.06 159.756 77.039
4.07 150.665 77.752
4.08 141.661 77.129
4.09 127.469 74.950
4.10 110.573 71.720
4.11 115.318 69.318
4.12 116.035 68.136
4.13 122.940 68.951
4.14 134.752 71.157
4.15 135.537 73.601
4.16 128.615 75.420
4.17 126.215 76.039
4.18 121.813 75.946
4.19 119.950 75.759
4.20 119.519 75.425
4.21 119.604 74.809
4.22 119.479 74.086
4.23 119.722 73.032
4.24 118.013 71.114
4.25 114.553 67.812
4.26 108.049 63.460
4.27 106.840 61.823
4.28 123.958 65.903
4.29 130.878 69.938
4.30 132.185 72.531
4.31 131.151 74.073
4.32 128.765 74.518
4.33 124.603 73.461
4.34 122.745 70.338
4.35 --undefined-- 64.443
4.36 --undefined-- 55.964
4.37 --undefined-- 47.379
4.38 --undefined-- 44.400
4.39 --undefined-- 43.196
4.40 --undefined-- 42.119
4.41 --undefined-- 44.715
4.42 --undefined-- 48.322
4.43 --undefined-- 51.070
4.44 --undefined-- 56.832
4.45 --undefined-- 65.271
4.46 180.212 71.120
4.47 169.346 74.246
4.48 162.252 75.430
4.49 161.508 75.567
4.50 161.383 75.446
4.51 160.537 75.436
4.52 159.787 75.605
4.53 159.534 75.833
4.54 158.534 75.933
4.55 156.825 75.719
4.56 155.094 74.936
4.57 155.147 73.375
4.58 156.320 71.050
4.59 149.130 68.354
4.60 142.930 65.482
4.61 135.747 63.027
4.62 125.834 61.729
4.63 120.728 61.294
4.64 114.535 61.465
4.65 110.570 63.436
4.66 110.592 66.715
4.67 113.853 69.754
4.68 116.075 72.072
4.69 115.704 73.271
4.70 112.239 73.228
4.71 108.997 72.879
4.72 109.289 73.137
4.73 109.051 73.158
4.74 107.852 72.492
4.75 107.075 71.584
4.76 106.349 70.903
4.77 104.614 70.179
4.78 102.440 68.589
4.79 97.431 65.871
4.80 102.419 63.756
4.81 104.965 63.328
4.82 103.251 63.139
4.83 100.342 62.612
4.84 99.140 61.901
4.85 98.331 60.996
4.86 95.735 59.942
4.87 --undefined-- 58.982
4.88 --undefined-- 57.083
4.89 --undefined-- 53.613
4.90 --undefined-- 50.056
4.91 --undefined-- 46.298
4.92 --undefined-- 42.139
4.93 --undefined-- 38.041
4.94 --undefined-- 35.960
4.95 --undefined-- 35.033
4.96 --undefined-- 36.135
4.97 --undefined-- 37.356
4.98 --undefined-- 37.707
4.99 --undefined-- 36.963
5.00 --undefined-- 35.539
5.01 --undefined-- 35.839
5.02 --undefined-- 37.575
5.03 --undefined-- 38.411
5.04 --undefined-- 37.440
5.05 --undefined-- 36.092
5.06 --undefined-- 35.628
5.07 --undefined-- 34.778
5.08 --undefined-- 35.012
5.09 --undefined-- 36.055
5.10 --undefined-- 36.958
5.11 --undefined-- 37.376
5.12 --undefined-- 36.669
5.13 --undefined-- 36.400
5.14 --undefined-- 39.847
5.15 --undefined-- 42.553
5.16 --undefined-- 42.337
5.17 --undefined-- 39.771
5.18 --undefined-- 36.410
5.19 --undefined-- 35.574
5.20 --undefined-- 37.037
5.21 --undefined-- 37.441
5.22 --undefined-- 38.060
5.23 --undefined-- 38.091
5.24 --undefined-- 36.849
5.25 --undefined-- 45.710
5.26 --undefined-- 59.872
5.27 --undefined-- 69.257
5.28 184.487 74.753
5.29 178.119 77.320
5.30 173.722 77.956
5.31 172.022 77.681
5.32 171.460 77.138
5.33 170.995 76.411
5.34 170.700 75.807
5.35 170.622 76.020
5.36 172.044 76.715
5.37 174.723 77.279
5.38 177.273 77.690
5.39 178.760 78.017
5.40 179.183 78.028
5.41 179.061 77.615
5.42 178.312 76.904
5.43 178.873 75.650
5.44 175.077 73.182
5.45 166.381 68.784
5.46 161.647 62.616
5.47 165.714 57.090
5.48 --undefined-- 53.019
5.49 --undefined-- 49.081
5.50 --undefined-- 52.570
5.51 --undefined-- 58.089
5.52 --undefined-- 60.115
5.53 --undefined-- 60.528
5.54 --undefined-- 60.726
5.55 --undefined-- 59.335
5.56 --undefined-- 61.322
5.57 164.546 67.500
5.58 160.867 71.895
5.59 153.589 74.510
5.60 149.970 76.101
5.61 148.073 77.237
5.62 147.695 78.153
5.63 146.910 78.732
5.64 144.644 78.761
5.65 141.892 78.161
5.66 141.810 77.299
5.67 141.103 76.472
5.68 140.452 75.768
5.69 137.391 75.001
5.70 132.756 73.221
5.71 123.809 69.324
5.72 115.634 62.856
5.73 --undefined-- 55.877
5.74 --undefined-- 51.252
5.75 --undefined-- 46.524
5.76 --undefined-- 43.510
5.77 --undefined-- 43.069
5.78 --undefined-- 41.990
5.79 --undefined-- 40.688
5.80 --undefined-- 39.214
5.81 --undefined-- 37.951
5.82 --undefined-- 38.574
5.83 --undefined-- 39.659
5.84 --undefined-- 40.007
5.85 --undefined-- 39.510
5.86 --undefined-- 39.081
5.87 --undefined-- 39.169
5.88 --undefined-- 39.461
5.89 --undefined-- 40.088
5.90 --undefined-- 40.560
5.91 --undefined-- 40.432
5.92 --undefined-- 39.727
5.93 --undefined-- 38.837
5.94 --undefined-- 38.371
5.95 --undefined-- 38.349
5.96 --undefined-- 38.156
5.97 --undefined-- 38.042
5.98 --undefined-- 40.656
5.99 --undefined-- 41.856
6.00 --undefined-- 40.160
6.01 --undefined-- 38.260
6.02 --undefined-- 38.613
6.03 --undefined-- 38.511
6.04 --undefined-- 37.644
6.05 --undefined-- 39.035
6.06 --undefined-- 43.290
6.07 --undefined-- 51.781
6.08 --undefined-- 61.401
6.09 --undefined-- --undefined--
6.10 --undefined-- --undefined--
6.11 --undefined-- --undefined--
6.12 --undefined-- --undefined--
