Time Pitch Intensity
0.01 --undefined-- --undefined--
0.02 --undefined-- --undefined--
0.03 --undefined-- --undefined--
0.04 --undefined-- --undefined--
0.05 --undefined-- 57.686
0.06 --undefined-- 56.238
0.07 --undefined-- 55.181
0.08 --undefined-- 55.000
0.09 --undefined-- 54.544
0.10 --undefined-- 53.385
0.11 --undefined-- 53.468
0.12 --undefined-- 54.612
0.13 --undefined-- 54.607
0.14 --undefined-- 53.506
0.15 --undefined-- 52.038
0.16 --undefined-- 50.802
0.17 --undefined-- 49.752
0.18 --undefined-- 48.862
0.19 --undefined-- 48.342
0.20 --undefined-- 49.474
0.21 --undefined-- 52.394
0.22 --undefined-- 55.866
0.23 --undefined-- 59.647
0.24 --undefined-- 62.993
0.25 --undefined-- 65.140
0.26 --undefined-- 66.405
0.27 --undefined-- 67.578
0.28 --undefined-- 68.731
0.29 --undefined-- 69.032
0.30 --undefined-- 68.240
0.31 --undefined-- 67.449
0.32 --undefined-- 66.275
0.33 --undefined-- 63.465
0.34 --undefined-- 59.531
0.35 --undefined-- 55.908
0.36 85.503 53.760
0.37 88.954 53.824
0.38 91.819 55.023
0.39 93.056 56.176
0.40 93.928 56.787
0.41 94.841 55.960
0.42 --undefined-- 52.670
0.43 --undefined-- 46.640
0.44 --undefined-- 41.977
0.45 --undefined-- 49.520
0.46 --undefined-- 55.432
0.47 --undefined-- 58.226
0.48 --undefined-- 62.186
0.49 --undefined-- 67.270
0.50 127.579 69.967
0.51 121.120 70.773
0.52 119.513 71.253
0.53 119.396 71.583
0.54 112.657 70.945
0.55 112.506 68.922
0.56 --undefined-- 66.212
0.57 --undefined-- 64.618
0.58 --undefined-- 62.197
0.59 97.766 59.638
0.60 97.349 60.095
0.61 93.053 59.832
0.62 91.469 58.608
0.63 89.584 57.735
0.64 87.600 57.260
0.65 --undefined-- 57.204
0.66 --undefined-- 57.680
0.67 --undefined-- 61.780
0.68 --undefined-- 67.103
0.69 --undefined-- 69.524
0.70 --undefined-- 69.456
0.71 --undefined-- 69.280
0.72 --undefined-- 69.547
0.73 --undefined-- 68.825
0.74 --undefined-- 67.362
0.75 --undefined-- 65.796
0.76 --undefined-- 64.448
0.77 --undefined-- 63.782
0.78 --undefined-- 62.776
0.79 --undefined-- 61.469
0.80 --undefined-- 61.552
0.81 --undefined-- 62.274
0.82 74.659 62.746
0.83 74.784 62.757
0.84 76.888 62.048
0.85 78.156 61.520
0.86 80.118 62.276
0.87 --undefined-- 63.158
0.88 --undefined-- 63.890
0.89 --undefined-- 65.921
0.90 --undefined-- 68.669
0.91 --undefined-- 70.342
0.92 --undefined-- 71.064
0.93 --undefined-- 71.268
0.94 --undefined-- 70.204
0.95 --undefined-- 67.873
0.96 --undefined-- 66.709
0.97 --undefined-- 66.706
0.98 --undefined-- 65.918
0.99 --undefined-- 64.383
1.00 --undefined-- 62.637
1.01 --undefined-- 60.862
1.02 --undefined-- 58.637
1.03 --undefined-- 55.475
1.04 --undefined-- 52.159
1.05 --undefined-- 50.158
1.06 --undefined-- 48.176
1.07 --undefined-- 46.327
1.08 --undefined-- 44.895
1.09 --undefined-- 42.550
1.10 --undefined-- 39.671
1.11 --undefined-- 39.515
1.12 --undefined-- 44.904
1.13 --undefined-- 53.882
1.14 --undefined-- 61.747
1.15 --undefined-- 66.588
1.16 --undefined-- 68.783
1.17 --undefined-- 69.054
1.18 --undefined-- 68.022
1.19 --undefined-- 65.833
1.20 --undefined-- 63.295
1.21 --undefined-- 61.343
1.22 --undefined-- 58.557
1.23 --undefined-- 54.139
1.24 --undefined-- 49.861
1.25 --undefined-- 45.202
1.26 --undefined-- 39.491
1.27 --undefined-- 35.973
1.28 --undefined-- 34.586
1.29 --undefined-- 33.977
1.30 --undefined-- 34.118
1.31 --undefined-- 35.553
1.32 --undefined-- 37.331
1.33 --undefined-- 39.197
1.34 --undefined-- 41.210
1.35 --undefined-- 42.432
1.36 --undefined-- 42.882
1.37 --undefined-- 43.145
1.38 --undefined-- 43.583
1.39 --undefined-- 43.975
1.40 --undefined-- 44.562
1.41 --undefined-- 45.164
1.42 --undefined-- 45.574
1.43 --undefined-- 45.536
1.44 --undefined-- 44.735
1.45 --undefined-- 43.910
1.46 --undefined-- 43.394
1.47 --undefined-- 42.843
1.48 --undefined-- 42.497
1.49 --undefined-- 42.169
1.50 --undefined-- 41.247
1.51 --undefined-- 39.947
1.52 --undefined-- 39.350
1.53 --undefined-- 38.641
1.54 --undefined-- 37.554
1.55 --undefined-- 36.917
1.56 --undefined-- 36.564
1.57 --undefined-- 36.354
1.58 --undefined-- 38.564
1.59 --undefined-- 43.555
1.60 --undefined-- 45.570
1.61 --undefined-- 43.668
1.62 --undefined-- 38.867
1.63 --undefined-- 35.191
1.64 --undefined-- 35.852
1.65 --undefined-- 47.617
1.66 --undefined-- 57.862
1.67 --undefined-- 62.654
1.68 --undefined-- 62.895
1.69 --undefined-- 61.232
1.70 --undefined-- 64.533
1.71 --undefined-- 68.178
1.72 --undefined-- 70.333
1.73 100.543 71.553
1.74 96.492 72.023
1.75 92.126 71.893
1.76 92.002 71.419
1.77 88.201 70.733
1.78 84.830 69.926
1.79 82.145 69.552
1.80 81.797 69.522
1.81 79.797 69.355
1.82 78.308 69.071
1.83 78.315 68.998
1.84 77.549 69.129
1.85 75.227 69.075
1.86 75.432 68.684
1.87 75.488 67.949
1.88 74.681 66.967
1.89 --undefined-- 66.318
1.90 --undefined-- 66.293
1.91 --undefined-- 66.390
1.92 75.123 66.909
1.93 74.886 67.897
1.94 76.600 68.771
1.95 76.543 69.386
1.96 79.218 69.744
1.97 79.892 69.888
1.98 83.603 69.549
1.99 84.026 68.333
2.00 85.806 66.473
2.01 89.211 64.664
2.02 94.464 62.957
2.03 96.479 61.217
2.04 99.018 59.824
2.05 --undefined-- 57.395
2.06 --undefined-- 52.241
2.07 --undefined-- 45.207
2.08 --undefined-- 49.612
2.09 --undefined-- 55.986
2.10 --undefined-- 58.273
2.11 --undefined-- 58.314
2.12 --undefined-- 61.650
2.13 --undefined-- 65.771
2.14 122.568 68.172
2.15 114.147 69.572
2.16 114.145 70.038
2.17 109.251 69.807
2.18 --undefined-- 69.379
2.19 --undefined-- 68.766
2.20 --undefined-- 68.563
2.21 --undefined-- 68.620
2.22 --undefined-- 68.118
2.23 --undefined-- 66.626
2.24 --undefined-- 63.678
2.25 --undefined-- 58.607
2.26 --undefined-- 52.997
2.27 --undefined-- 50.887
2.28 --undefined-- 49.493
2.29 --undefined-- 47.936
2.30 --undefined-- 45.886
2.31 --undefined-- 45.563
2.32 --undefined-- 51.037
2.33 --undefined-- 55.654
2.34 --undefined-- 58.285
2.35 --undefined-- 59.702
2.36 --undefined-- 60.711
2.37 --undefined-- 62.953
2.38 --undefined-- 66.358
2.39 103.344 69.191
2.40 105.209 70.827
2.41 108.155 71.461
2.42 109.150 71.564
2.43 108.772 71.062
2.44 --undefined-- 69.045
2.45 --undefined-- 64.645
2.46 --undefined-- 59.898
2.47 --undefined-- 60.985
2.48 --undefined-- 63.065
2.49 --undefined-- 63.399
2.50 --undefined-- 62.073
2.51 --undefined-- 59.452
2.52 --undefined-- 56.467
2.53 --undefined-- 55.298
2.54 --undefined-- 54.691
2.55 --undefined-- 52.814
2.56 --undefined-- 49.875
2.57 --undefined-- 47.336
2.58 --undefined-- 45.186
2.59 --undefined-- 42.678
2.60 --undefined-- 40.656
2.61 --undefined-- 48.676
2.62 --undefined-- 55.862
2.63 --undefined-- 58.929
2.64 --undefined-- 59.337
2.65 --undefined-- 59.375
2.66 --undefined-- 63.757
2.67 --undefined-- 69.216
2.68 106.184 72.022
2.69 104.229 72.418
2.70 104.268 71.058
2.71 103.550 68.189
2.72 --undefined-- 63.407
2.73 --undefined-- 56.209
2.74 --undefined-- 49.272
2.75 --undefined-- 48.509
2.76 --undefined-- 48.991
2.77 --undefined-- 49.176
2.78 --undefined-- 49.075
2.79 --undefined-- 51.662
2.80 --undefined-- 57.748
2.81 --undefined-- 61.741
2.82 --undefined-- 62.932
2.83 --undefined-- 62.703
2.84 88.665 62.288
2.85 85.390 61.723
2.86 85.004 61.436
2.87 82.408 61.932
2.88 82.556 62.255
2.89 79.467 60.975
2.90 76.332 57.891
2.91 --undefined-- 53.610
2.92 --undefined-- 49.604
2.93 --undefined-- 48.365
2.94 --undefined-- 48.413
2.95 --undefined-- 48.054
2.96 --undefined-- 46.860
2.97 --undefined-- 44.867
2.98 --undefined-- 42.300
2.99 --undefined-- 39.067
3.00 --undefined-- 36.282
3.01 --undefined-- 35.298
3.02 --undefined-- 35.996
3.03 --undefined-- 38.891
3.04 --undefined-- 44.805
3.05 --undefined-- 51.697
3.06 --undefined-- 60.204
3.07 --undefined-- 65.856
3.08 --undefined-- 68.262
3.09 90.063 68.467
3.10 92.746 67.303
3.11 88.647 65.029
3.12 88.212 61.421
3.13 --undefined-- 56.138
3.14 --undefined-- 49.917
3.15 --undefined-- 48.044
3.16 --undefined-- 49.546
3.17 --undefined-- 50.324
3.18 --undefined-- 50.224
3.19 --undefined-- 50.112
3.20 --undefined-- 49.692
3.21 --undefined-- 48.448
3.22 --undefined-- 45.939
3.23 --undefined-- 41.869
3.24 --undefined-- 37.579
3.25 --undefined-- 36.152
3.26 --undefined-- 38.145
3.27 --undefined-- 44.890
3.28 --undefined-- 53.033
3.29 --undefined-- 57.669
3.30 --undefined-- 61.945
3.31 --undefined-- 66.964
3.32 96.678 69.905
3.33 93.787 70.624
3.34 93.109 70.036
3.35 91.709 69.316
3.36 90.190 68.820
3.37 87.807 68.092
3.38 88.035 67.163
3.39 87.919 66.358
3.40 87.688 65.659
3.41 87.175 64.888
3.42 86.310 63.988
3.43 85.152 63.270
3.44 84.474 62.926
3.45 84.606 62.660
3.46 85.266 62.467
3.47 85.291 62.175
3.48 84.137 62.163
3.49 84.572 62.094
3.50 82.532 61.646
3.51 81.942 61.727
3.52 81.546 62.242
3.53 81.339 62.730
3.54 80.923 63.433
3.55 79.398 64.396
3.56 79.410 64.958
3.57 79.508 64.428
3.58 79.735 62.888
3.59 81.130 61.481
3.60 80.263 60.914
3.61 79.955 60.752
3.62 79.885 61.118
3.63 80.113 61.747
3.64 79.074 62.398
3.65 80.918 62.455
3.66 80.399 61.848
3.67 --undefined-- 61.620
3.68 --undefined-- 60.902
3.69 --undefined-- 58.340
3.70 --undefined-- 54.600
3.71 --undefined-- 58.342
3.72 --undefined-- 63.035
3.73 --undefined-- 63.798
3.74 --undefined-- 61.248
3.75 --undefined-- 60.395
3.76 --undefined-- 63.088
3.77 87.276 64.337
3.78 88.273 64.977
3.79 83.273 65.938
3.80 82.505 66.359
3.81 82.842 66.476
3.82 83.136 66.955
3.83 79.872 67.071
3.84 78.726 66.650
3.85 77.749 66.254
3.86 77.548 65.949
3.87 77.417 65.237
3.88 74.861 64.862
3.89 75.428 66.133
3.90 --undefined-- 66.907
3.91 --undefined-- 66.108
3.92 --undefined-- 65.474
3.93 --undefined-- 65.408
3.94 75.151 65.524
3.95 75.160 65.660
3.96 75.184 65.337
3.97 75.281 64.743
3.98 --undefined-- 63.990
3.99 --undefined-- 62.242
4.00 --undefined-- 59.438
4.01 --undefined-- 56.193
4.02 --undefined-- 52.907
4.03 --undefined-- 53.143
4.04 106.564 57.223
4.05 106.962 61.570
4.06 113.918 65.064
4.07 115.906 67.553
4.08 117.907 69.022
4.09 117.550 68.856
4.10 115.701 66.179
4.11 --undefined-- 60.494
4.12 --undefined-- 52.834
4.13 --undefined-- 57.116
4.14 --undefined-- 61.966
4.15 --undefined-- 65.782
4.16 --undefined-- 69.605
4.17 --undefined-- 70.884
4.18 --undefined-- 68.944
4.19 --undefined-- 63.817
4.20 --undefined-- 56.984
4.21 --undefined-- 57.462
4.22 --undefined-- 59.487
4.23 --undefined-- 63.196
4.24 --undefined-- 68.755
4.25 115.692 72.277
4.26 109.770 73.952
4.27 105.583 74.481
4.28 102.250 73.941
4.29 99.416 72.131
4.30 94.539 68.865
4.31 --undefined-- 63.451
4.32 --undefined-- 55.712
4.33 --undefined-- 52.247
4.34 --undefined-- 58.398
4.35 --undefined-- 66.253
4.36 --undefined-- 71.493
4.37 114.283 74.173
4.38 111.306 75.402
4.39 108.668 76.298
4.40 107.319 77.176
4.41 106.772 77.744
4.42 106.048 77.504
4.43 105.731 76.268
4.44 105.779 74.643
4.45 106.394 73.750
4.46 108.087 73.994
4.47 109.739 74.457
4.48 111.311 74.472
4.49 112.296 73.965
4.50 113.211 72.787
4.51 112.816 70.574
4.52 --undefined-- 67.114
4.53 --undefined-- 63.868
4.54 --undefined-- 62.334
4.55 --undefined-- 60.524
4.56 --undefined-- 60.162
4.57 --undefined-- 61.883
4.58 --undefined-- 62.472
4.59 --undefined-- 61.163
4.60 --undefined-- 58.647
4.61 --undefined-- 55.501
4.62 --undefined-- 52.516
4.63 --undefined-- 50.839
4.64 --undefined-- 49.540
4.65 --undefined-- 48.155
4.66 --undefined-- 47.747
4.67 --undefined-- 48.124
4.68 --undefined-- 48.355
4.69 --undefined-- 48.135
4.70 --undefined-- 48.694
4.71 --undefined-- 54.558
4.72 --undefined-- 60.567
4.73 --undefined-- 63.334
4.74 --undefined-- 63.766
4.75 --undefined-- 63.544
4.76 --undefined-- 63.302
4.77 --undefined-- 61.841
4.78 --undefined-- 57.598
4.79 --undefined-- 50.725
4.80 --undefined-- 47.668
4.81 --undefined-- 47.394
4.82 --undefined-- 47.129
4.83 --undefined-- 46.836
4.84 --undefined-- 45.405
4.85 --undefined-- 41.908
4.86 --undefined-- 43.821
4.87 --undefined-- 53.465
4.88 --undefined-- 58.797
4.89 --undefined-- 60.417
4.90 --undefined-- 60.234
4.91 --undefined-- 61.550
4.92 --undefined-- 62.949
4.93 --undefined-- 62.929
4.94 --undefined-- 62.090
4.95 --undefined-- 61.828
4.96 --undefined-- 62.651
4.97 --undefined-- 63.921
4.98 --undefined-- 65.459
4.99 --undefined-- 66.797
5.00 --undefined-- 67.411
5.01 --undefined-- 66.822
5.02 --undefined-- 64.344
5.03 --undefined-- 62.390
5.04 --undefined-- 64.172
5.05 --undefined-- 64.061
5.06 --undefined-- 63.314
5.07 --undefined-- 65.544
5.08 --undefined-- 66.791
5.09 --undefined-- 66.450
5.10 --undefined-- 64.784
5.11 --undefined-- 63.106
5.12 --undefined-- 61.766
5.13 --undefined-- 60.392
5.14 --undefined-- 59.463
5.15 77.099 59.427
5.16 76.481 60.646
5.17 75.660 61.938
5.18 83.109 62.577
5.19 82.828 62.305
5.20 77.345 62.280
5.21 76.070 62.845
5.22 76.221 62.777
5.23 76.287 62.194
5.24 75.520 62.158
5.25 76.003 62.303
5.26 74.958 62.472
5.27 --undefined-- 62.617
5.28 --undefined-- 61.831
5.29 --undefined-- 60.611
5.30 --undefined-- 59.894
5.31 --undefined-- 59.060
5.32 --undefined-- 57.413
5.33 --undefined-- 54.636
5.34 --undefined-- 49.985
5.35 --undefined-- 44.006
5.36 --undefined-- 40.896
5.37 --undefined-- 38.881
5.38 --undefined-- 38.040
5.39 --undefined-- 38.256
5.40 --undefined-- 38.195
5.41 --undefined-- 38.265
5.42 --undefined-- 37.570
5.43 --undefined-- 36.456
5.44 --undefined-- 37.124
5.45 --undefined-- 38.648
5.46 --undefined-- 39.681
5.47 --undefined-- 40.258
5.48 --undefined-- 40.748
5.49 --undefined-- 40.955
5.50 --undefined-- 40.461
5.51 --undefined-- 39.841
5.52 --undefined-- 39.529
5.53 --undefined-- 39.443
5.54 --undefined-- 39.378
5.55 --undefined-- 39.322
5.56 --undefined-- 39.101
5.57 --undefined-- 38.197
5.58 --undefined-- 37.381
5.59 --undefined-- 37.315
5.60 --undefined-- 37.386
5.61 --undefined-- 38.213
5.62 --undefined-- 39.225
5.63 --undefined-- 39.101
5.64 --undefined-- 38.026
5.65 --undefined-- 37.312
5.66 --undefined-- 37.279
5.67 --undefined-- 37.272
5.68 --undefined-- 38.553
5.69 --undefined-- 40.577
5.70 --undefined-- 40.640
5.71 --undefined-- 39.050
5.72 --undefined-- 38.541
5.73 --undefined-- 39.199
5.74 --undefined-- --undefined--
5.75 --undefined-- --undefined--
5.76 --undefined-- --undefined--
5.77 --undefined-- --undefined--
