Time Pitch Intensity
0.01 --undefined-- --undefined--
0.02 182.798 --undefined--
0.03 175.907 --undefined--
0.04 --undefined-- --undefined--
0.05 --undefined-- 58.661
0.06 --undefined-- 55.242
0.07 --undefined-- 52.255
0.08 --undefined-- 48.734
0.09 --undefined-- 48.819
0.10 --undefined-- 52.884
0.11 --undefined-- 56.358
0.12 --undefined-- 57.520
0.13 --undefined-- 56.474
0.14 --undefined-- 53.356
0.15 --undefined-- 49.751
0.16 --undefined-- 49.324
0.17 --undefined-- 50.837
0.18 --undefined-- 53.088
0.19 --undefined-- 54.250
0.20 --undefined-- 53.530
0.21 --undefined-- 51.011
0.22 --undefined-- 48.458
0.23 --undefined-- 46.977
0.24 --undefined-- 48.014
0.25 --undefined-- 51.008
0.26 --undefined-- 51.658
0.27 --undefined-- 49.660
0.28 --undefined-- 47.042
0.29 --undefined-- 48.531
0.30 --undefined-- 50.468
0.31 --undefined-- 50.489
0.32 --undefined-- 49.313
0.33 --undefined-- 49.521
0.34 --undefined-- 52.308
0.35 --undefined-- 55.438
0.36 --undefined-- 60.489
0.37 169.426 65.271
0.38 171.368 67.916
0.39 173.564 68.952
0.40 175.089 69.200
0.41 175.702 69.033
0.42 175.218 68.513
0.43 173.755 67.695
0.44 171.669 67.372
0.45 174.017 67.309
0.46 175.220 66.502
0.47 176.458 65.475
0.48 177.517 65.101
0.49 178.090 65.265
0.50 178.909 65.380
0.51 179.623 65.147
0.52 180.911 64.648
0.53 181.458 64.185
0.54 181.021 64.125
0.55 180.309 64.443
0.56 179.226 64.891
0.57 177.964 65.355
0.58 176.783 65.790
0.59 174.634 66.273
0.60 172.181 66.951
0.61 169.682 68.020
0.62 166.783 69.423
0.63 164.031 70.727
0.64 161.274 71.275
0.65 155.115 70.765
0.66 287.411 69.330
0.67 265.396 67.455
0.68 235.874 66.342
0.69 225.325 66.717
0.70 213.681 67.314
0.71 199.015 67.403
0.72 196.114 67.330
0.73 195.149 67.304
0.74 194.771 67.241
0.75 196.438 67.115
0.76 199.899 66.840
0.77 202.832 66.431
0.78 207.905 66.151
0.79 212.869 66.226
0.80 220.076 66.331
0.81 223.766 66.147
0.82 227.003 65.822
0.83 236.637 65.975
0.84 245.728 66.348
0.85 257.844 66.430
0.86 269.783 66.035
0.87 284.645 65.059
0.88 285.268 63.416
0.89 270.638 60.583
0.90 259.064 56.491
0.91 258.982 53.601
0.92 --undefined-- 53.536
0.93 --undefined-- 54.271
0.94 --undefined-- 55.242
0.95 254.634 57.240
0.96 258.587 60.188
0.97 297.633 63.262
0.98 153.527 65.537
0.99 156.275 66.706
1.00 157.945 67.080
1.01 158.459 67.177
1.02 157.960 67.353
1.03 157.139 67.685
1.04 156.289 68.083
1.05 154.944 68.288
1.06 152.296 67.822
1.07 149.865 65.950
1.08 150.262 61.878
1.09 --undefined-- 55.885
1.10 --undefined-- 52.131
1.11 --undefined-- 54.285
1.12 --undefined-- 57.575
1.13 --undefined-- 61.511
1.14 --undefined-- 65.589
1.15 --undefined-- 68.502
1.16 165.967 70.120
1.17 165.069 70.529
1.18 167.513 69.611
1.19 172.400 67.541
1.20 183.336 65.518
1.21 188.514 64.199
1.22 198.352 62.915
1.23 204.552 61.681
1.24 208.624 60.904
1.25 217.453 61.327
1.26 224.404 62.377
1.27 229.405 62.981
1.28 232.455 62.790
1.29 232.352 61.457
1.30 229.831 58.523
1.31 230.859 53.812
1.32 --undefined-- 47.763
1.33 --undefined-- 44.652
1.34 --undefined-- 48.861
1.35 --undefined-- 51.878
1.36 --undefined-- 52.152
1.37 --undefined-- 50.722
1.38 --undefined-- 49.955
1.39 --undefined-- 51.352
1.40 --undefined-- 54.896
1.41 --undefined-- 61.310
1.42 --undefined-- 65.689
1.43 --undefined-- 67.282
1.44 180.825 66.812
1.45 176.465 65.301
1.46 174.387 63.569
1.47 172.857 61.672
1.48 171.729 60.135
1.49 167.173 59.429
1.50 164.810 58.895
1.51 162.349 57.598
1.52 159.383 55.146
1.53 158.082 52.265
1.54 157.863 50.747
1.55 158.887 50.759
1.56 170.470 51.479
1.57 184.939 54.376
1.58 196.344 57.970
1.59 197.216 60.477
1.60 199.188 61.818
1.61 206.491 62.421
1.62 210.577 62.952
1.63 214.260 63.414
1.64 217.346 63.235
1.65 218.689 62.219
1.66 217.008 59.789
1.67 215.539 55.047
1.68 --undefined-- 48.351
1.69 --undefined-- 44.563
1.70 --undefined-- 43.634
1.71 --undefined-- 43.285
1.72 --undefined-- 44.704
1.73 --undefined-- 46.203
1.74 --undefined-- 46.790
1.75 --undefined-- 48.105
1.76 --undefined-- 50.487
1.77 --undefined-- 52.829
1.78 --undefined-- 53.802
1.79 --undefined-- 55.958
1.80 206.696 60.309
1.81 204.800 63.504
1.82 196.802 65.243
1.83 190.152 66.260
1.84 187.370 66.809
1.85 184.924 66.759
1.86 182.573 66.475
1.87 181.516 66.440
1.88 180.284 66.750
1.89 179.047 67.382
1.90 176.705 67.998
1.91 175.035 68.184
1.92 173.881 67.649
1.93 172.831 66.134
1.94 172.403 63.214
1.95 173.044 58.458
1.96 173.853 52.280
1.97 --undefined-- 47.529
1.98 --undefined-- 47.408
1.99 --undefined-- 47.849
2.00 --undefined-- 46.582
2.01 --undefined-- 47.023
2.02 --undefined-- 50.415
2.03 --undefined-- 56.467
2.04 --undefined-- 63.021
2.05 --undefined-- 66.639
2.06 --undefined-- 67.474
2.07 172.683 66.814
2.08 165.823 65.964
2.09 161.365 64.963
2.10 160.108 63.132
2.11 160.077 60.200
2.12 160.661 56.869
2.13 162.403 54.027
2.14 --undefined-- 50.926
2.15 --undefined-- 48.716
2.16 --undefined-- 51.421
2.17 --undefined-- 53.616
2.18 --undefined-- 52.770
2.19 --undefined-- 51.670
2.20 183.136 54.334
2.21 171.324 56.516
2.22 174.035 57.259
2.23 183.721 58.494
2.24 181.672 60.998
2.25 168.477 63.200
2.26 164.409 64.257
2.27 162.085 64.358
2.28 161.397 63.957
2.29 158.795 63.371
2.30 157.045 62.586
2.31 154.764 61.009
2.32 152.790 58.228
2.33 151.025 54.807
2.34 --undefined-- 52.076
2.35 --undefined-- 50.611
2.36 --undefined-- 49.167
2.37 --undefined-- 48.297
2.38 --undefined-- 52.674
2.39 201.100 58.080
2.40 199.762 61.699
2.41 201.203 63.433
2.42 204.135 63.570
2.43 206.780 62.994
2.44 208.831 62.823
2.45 209.498 63.119
2.46 210.018 63.334
2.47 211.155 63.411
2.48 212.328 63.446
2.49 211.450 63.112
2.50 208.850 61.868
2.51 208.459 59.196
2.52 --undefined-- 55.702
2.53 --undefined-- 53.621
2.54 --undefined-- 51.937
2.55 199.496 52.702
2.56 201.643 55.503
2.57 199.061 56.794
2.58 202.360 56.889
2.59 207.043 56.624
2.60 195.021 56.912
2.61 155.534 58.435
2.62 147.641 59.945
2.63 136.891 60.528
2.64 138.066 60.374
2.65 141.786 59.968
2.66 140.816 59.825
2.67 140.398 59.992
2.68 141.060 59.864
2.69 143.370 59.209
2.70 143.990 58.027
2.71 141.825 56.099
2.72 134.663 52.882
2.73 --undefined-- 48.382
2.74 --undefined-- 47.864
2.75 --undefined-- 53.831
2.76 185.727 58.970
2.77 179.376 62.278
2.78 173.081 64.310
2.79 170.454 65.408
2.80 168.278 66.192
2.81 167.043 67.301
2.82 167.355 68.408
2.83 167.412 69.298
2.84 167.896 70.098
2.85 168.705 70.830
2.86 170.103 71.421
2.87 171.321 71.661
2.88 173.112 71.349
2.89 173.735 70.693
2.90 172.797 69.968
2.91 171.862 68.915
2.92 170.657 67.710
2.93 169.991 67.113
2.94 --undefined-- 66.493
2.95 --undefined-- 64.688
2.96 --undefined-- 61.255
2.97 --undefined-- 57.080
2.98 --undefined-- 54.224
2.99 --undefined-- 52.094
3.00 --undefined-- 50.228
3.01 --undefined-- 48.247
3.02 --undefined-- 45.735
3.03 --undefined-- 44.700
3.04 --undefined-- 48.436
3.05 --undefined-- 51.440
3.06 --undefined-- 51.801
3.07 --undefined-- 50.695
3.08 --undefined-- 50.083
3.09 --undefined-- 50.831
3.10 --undefined-- 50.926
3.11 --undefined-- 49.674
3.12 --undefined-- 46.736
3.13 --undefined-- 43.425
3.14 --undefined-- 42.657
3.15 --undefined-- 42.339
3.16 --undefined-- 42.196
3.17 --undefined-- 43.422
3.18 --undefined-- 44.530
3.19 --undefined-- 44.650
3.20 --undefined-- 45.277
3.21 --undefined-- 46.401
3.22 --undefined-- 46.926
3.23 --undefined-- 46.328
3.24 --undefined-- 45.624
3.25 --undefined-- 45.605
3.26 --undefined-- 46.281
3.27 --undefined-- 47.319
3.28 --undefined-- 48.754
3.29 --undefined-- 49.090
3.30 --undefined-- 47.693
3.31 --undefined-- 47.180
3.32 --undefined-- 48.157
3.33 --undefined-- 48.541
3.34 --undefined-- 47.507
3.35 --undefined-- 46.981
3.36 --undefined-- 47.794
3.37 --undefined-- 48.400
3.38 --undefined-- 49.086
3.39 --undefined-- 49.404
3.40 --undefined-- 49.188
3.41 --undefined-- 48.303
3.42 --undefined-- 47.489
3.43 --undefined-- 47.853
3.44 --undefined-- 50.375
3.45 --undefined-- 53.132
3.46 --undefined-- 54.347
3.47 --undefined-- 53.831
3.48 --undefined-- 52.103
3.49 --undefined-- 50.874
3.50 --undefined-- 50.186
3.51 --undefined-- 49.186
3.52 --undefined-- 47.680
3.53 --undefined-- 50.140
3.54 286.396 57.168
3.55 258.143 61.778
3.56 260.964 64.656
3.57 265.208 67.022
3.58 271.014 68.935
3.59 278.033 70.399
3.60 285.095 71.619
3.61 293.747 72.447
3.62 296.549 72.103
3.63 296.292 69.706
3.64 289.622 65.151
3.65 290.172 60.153
3.66 --undefined-- 61.476
3.67 177.531 66.796
3.68 182.693 70.457
3.69 185.664 72.028
3.70 186.568 71.899
3.71 186.300 70.738
3.72 183.901 69.054
3.73 179.979 67.147
3.74 177.374 65.125
3.75 174.939 63.106
3.76 168.551 62.462
3.77 169.297 63.792
3.78 171.767 65.622
3.79 170.980 67.284
3.80 163.406 68.714
3.81 156.213 69.573
3.82 298.086 69.747
3.83 289.604 69.592
3.84 285.057 69.027
3.85 281.453 68.156
3.86 282.449 67.294
3.87 280.512 65.848
3.88 278.366 63.290
3.89 278.658 59.754
3.90 276.915 56.355
3.91 --undefined-- 53.275
3.92 --undefined-- 50.231
3.93 --undefined-- 50.409
3.94 --undefined-- 55.807
3.95 172.422 61.601
3.96 175.288 65.033
3.97 178.774 66.393
3.98 184.991 66.924
3.99 188.944 67.632
4.00 191.476 68.159
4.01 193.305 67.940
4.02 195.170 67.031
4.03 198.171 66.137
4.04 199.226 65.717
4.05 199.153 65.411
4.06 198.705 64.860
4.07 196.985 63.918
4.08 194.433 62.172
4.09 188.320 59.120
4.10 --undefined-- 55.563
4.11 --undefined-- 55.004
4.12 170.144 58.568
4.13 168.294 61.729
4.14 163.888 63.374
4.15 158.575 63.688
4.16 --undefined-- 62.975
4.17 285.086 61.912
4.18 269.726 61.327
4.19 264.537 61.880
4.20 264.390 63.244
4.21 259.088 64.395
4.22 201.099 65.163
4.23 190.896 66.061
4.24 179.495 66.581
4.25 168.420 66.492
4.26 163.424 65.980
4.27 160.615 64.873
4.28 159.598 63.399
4.29 161.467 62.536
4.30 165.418 62.747
4.31 169.645 63.609
4.32 173.998 64.483
4.33 179.319 64.926
4.34 184.667 64.932
4.35 191.884 64.731
4.36 198.718 64.523
4.37 208.700 64.618
4.38 225.994 65.750
4.39 238.900 67.438
4.40 247.294 68.667
4.41 258.431 69.209
4.42 268.811 69.013
4.43 280.922 68.281
4.44 290.353 67.801
4.45 297.011 67.860
4.46 299.621 67.887
4.47 299.461 67.731
4.48 294.786 67.751
4.49 287.658 67.803
4.50 276.516 67.876
4.51 264.157 68.231
4.52 250.553 68.263
4.53 238.735 67.532
4.54 228.365 66.095
4.55 220.277 63.861
4.56 209.253 60.135
4.57 --undefined-- 54.519
4.58 --undefined-- 50.664
4.59 --undefined-- 52.413
4.60 --undefined-- 54.105
4.61 --undefined-- 55.360
4.62 --undefined-- 56.356
4.63 256.966 58.810
4.64 240.160 63.041
4.65 232.474 65.993
4.66 229.777 67.021
4.67 227.939 66.849
4.68 229.006 66.661
4.69 230.453 66.674
4.70 228.116 66.322
4.71 226.254 65.884
4.72 225.565 65.891
4.73 224.785 66.021
4.74 223.717 65.836
4.75 221.712 65.298
4.76 219.803 64.745
4.77 219.204 64.348
4.78 218.642 63.948
4.79 217.006 62.906
4.80 216.452 60.111
4.81 --undefined-- 54.804
4.82 --undefined-- 50.145
4.83 --undefined-- 50.827
4.84 --undefined-- 54.769
4.85 257.931 60.172
4.86 241.645 63.385
4.87 235.089 64.882
4.88 234.777 65.751
4.89 236.236 66.475
4.90 238.321 66.940
4.91 241.403 66.976
4.92 246.133 66.678
4.93 252.061 66.568
4.94 257.559 66.802
4.95 263.212 66.542
4.96 270.372 65.455
4.97 277.964 63.800
4.98 276.773 61.227
4.99 272.926 56.951
5.00 275.229 52.093
5.01 275.470 50.384
5.02 --undefined-- 48.673
5.03 --undefined-- 46.232
5.04 --undefined-- 46.364
5.05 --undefined-- 47.080
5.06 --undefined-- 46.549
5.07 --undefined-- 46.114
5.08 --undefined-- 46.413
5.09 --undefined-- 47.889
5.10 --undefined-- 53.764
5.11 --undefined-- 59.291
5.12 --undefined-- 62.358
5.13 --undefined-- 63.583
5.14 166.502 63.993
5.15 159.549 63.870
5.16 156.466 63.270
5.17 155.123 62.587
5.18 154.219 62.246
5.19 154.331 62.222
5.20 154.348 62.042
5.21 153.341 61.885
5.22 153.593 61.705
5.23 154.693 61.231
5.24 154.697 60.718
5.25 154.622 59.936
5.26 154.252 58.940
5.27 156.986 --undefined--
5.28 156.784 --undefined--
5.29 --undefined-- --undefined--
5.30 --undefined-- --undefined--
